#Wavelength (nm)	n	k
500	0.84596	1.8214
505	0.75248	1.8797
510	0.6693	1.9502
515	0.59982	2.0284
520	0.54321	2.1074
525	0.49557	2.1883
530	0.45393	2.268
535	0.42109	2.3433
540	0.39122	2.4196
545	0.36608	2.4902
550	0.34475	2.5612
555	0.32394	2.6305
560	0.30761	2.6965
565	0.29186	2.7626
570	0.27807	2.8267
575	0.26441	2.8896
580	0.25302	2.9499
585	0.24181	3.0105
590	0.23219	3.0687
595	0.22351	3.1262
600	0.21519	3.1838
605	0.20791	3.2396
610	0.20116	3.2954
615	0.19295	3.3502
620	0.18675	3.4045
625	0.182	3.458
630	0.17724	3.5112
635	0.17176	3.5636
640	0.16678	3.6138
645	0.16144	3.6671
650	0.15627	3.7183
655	0.15391	3.7703
660	0.14927	3.8213
665	0.14608	3.8716
670	0.1431	3.9217
675	0.14051	3.9713
680	0.13804	4.0212
685	0.13629	4.0705
690	0.13504	4.1197
695	0.13349	4.168
700	0.13252	4.2158
705	0.13277	4.2639
710	0.1329	4.3124
715	0.13172	4.3585
720	0.13196	4.4054
725	0.13139	4.4517
730	0.13157	4.4999
735	0.1317	4.5434
740	0.13383	4.5879
745	0.13294	4.6322
750	0.13229	4.6782
755	0.13331	4.7239
760	0.13181	4.7678
765	0.13359	4.8121
770	0.13393	4.8518
775	0.13462	4.897
780	0.13153	4.936
785	0.13178	4.9844
790	0.13276	5.0255
795	0.13497	5.0689
800	0.13538	5.1125
805	0.13589	5.1529
810	0.13511	5.1962
815	0.13754	5.2409
820	0.13871	5.288
825	0.13958	5.3252
830	0.14129	5.3653
835	0.14014	5.4114
840	0.14078	5.4526
845	0.14217	5.4921
850	0.14342	5.537
855	0.14551	5.58
860	0.14371	5.6226
865	0.14444	5.6652
870	0.14554	5.7078
875	0.14334	5.7534
880	0.14644	5.7932
885	0.14819	5.8181
890	0.14866	5.8666
895	0.14894	5.9104
900	0.14719	5.9483
905	0.14902	5.9901
910	0.14923	6.0251
915	0.14908	6.077
920	0.15168	6.1062
925	0.15338	6.1476
930	0.15372	6.1928
935	0.15299	6.2354
940	0.15355	6.2737
945	0.15455	6.3118
950	0.15523	6.3535
955	0.15972	6.3886
960	0.15934	6.4338
965	0.15854	6.4793
970	0.15962	6.5161
975	0.15066	6.574
980	0.16002	6.5943
985	0.16065	6.6306
990	0.16319	6.6742
995	0.16385	6.7108
1000	0.16582	6.7466
1005	0.16445	6.7911
1010	0.16465	6.8344
1015	0.16411	6.8666
1020	0.16217	6.9077
1025	0.1675	6.9497
1030	0.16531	6.9913
1035	0.1686	7.0281
1040	0.16464	7.0671
1045	0.16325	7.1087
1050	0.15974	7.1495
1055	0.16222	7.2002
1060	0.16397	7.2363
1065	0.16611	7.2752
1070	0.16558	7.3219
1075	0.16326	7.3586
1080	0.16936	7.3999
1085	0.16968	7.437
1090	0.1716	7.482
1095	0.17221	7.5137
1100	0.16966	7.5574
1105	0.17166	7.5981
1110	0.17369	7.6382
1115	0.17289	7.6745
1120	0.17286	7.7128
1125	0.17244	7.7544
1130	0.17539	7.7917
1135	0.17723	7.824
1140	0.17478	7.8683
1145	0.17617	7.9065
1150	0.17893	7.9436
1155	0.18204	7.9822
1160	0.17525	8.0195
1165	0.17882	8.0639
1170	0.17374	8.1096
1175	0.17932	8.1445
1180	0.18004	8.1759
1185	0.17997	8.2219
1190	0.18158	8.254
1195	0.18014	8.2947
1200	0.17704	8.3282
1205	0.17834	8.364
1210	0.17535	8.4053
1215	0.17622	8.4418
1220	0.17118	8.4882
1225	0.17965	8.5229
1230	0.18056	8.5688
1235	0.18067	8.6052
1240	0.18478	8.6399
1245	0.18394	8.6788
1250	0.18319	8.7156
1255	0.18536	8.7474
1260	0.18407	8.8101
1265	0.18854	8.8435
1270	0.19275	8.881
1275	0.18662	8.907
1280	0.18499	8.9546
1285	0.19229	8.9856
1290	0.19176	9.0229
1295	0.1908	9.0598
1300	0.19069	9.1043
1305	0.19104	9.1378
1310	0.1924	9.1794
1315	0.19791	9.2186
1320	0.19331	9.2524
1325	0.20023	9.2972
1330	0.20547	9.3183
1335	0.20041	9.3699
1340	0.20709	9.4044
1345	0.20309	9.4409
1350	0.19977	9.4867
1355	0.20488	9.5122
1360	0.20382	9.5325
1365	0.21419	9.5992
1370	0.20778	9.6377
1375	0.21323	9.6629
1380	0.21077	9.7062
1385	0.20621	9.75
1390	0.20537	9.79
1395	0.20384	9.8179
1400	0.20742	9.8553
1405	0.20848	9.8884
1410	0.20292	9.9315
1415	0.21906	9.9789
1420	0.21912	10.017
1425	0.21678	10.052
1430	0.21614	10.105
1435	0.21615	10.134
1440	0.21178	10.167
1445	0.21442	10.206
1450	0.21389	10.248
1455	0.22197	10.263
1460	0.20407	10.316
1465	0.21903	10.337
1470	0.22774	10.388
1475	0.24453	10.446
1480	0.24026	10.487
1485	0.24149	10.5
1490	0.2328	10.549
1495	0.23002	10.593
1500	0.21821	10.621
