# ZnO
# W. L. Bond. Measurement of the refractive indices of several crystals, J. Appl. Phys. 36, 1674-1677 (1965)
# wvl(nm)	n
450	2.105399121
485.5	2.064159181
521	2.036404658
556.5	2.016562022
592	2.001743183
627.5	1.990303413
663	1.98123843
698.5	1.973901163
734	1.967856502
769.5	1.962801502
805	1.958519045
840.5	1.954849675
876	1.951673804
911.5	1.948900107
947	1.946457725
982.5	1.944290902
1018	1.942355217
1054	1.94059162
1089	1.939040775
1125	1.937589726
1160	1.936299677
1196	1.935080093
1231	1.93398512
